Folder: Master_Praktikum/v65/65_rntgnrflktrmtr

File: det_scan.uxd
; (content of file C:\Users\BrukerAdm\Desktop\Praktikum\65_hering_ptaszyk\det_scan.raw)
_FILEVERSION = 2
_SAMPLE =
_+SAMPLE =
_SITE = Dortmund
_USER = "Metin Tolan"
_GONIOMETER_CODE = 21
_STAGE_CODE = 8
; Goniometer : D8 theta/theta, stage : XYZ Drive(s)
_SAMPLE_CHANGER_CODE = 0
_ATTACHMENTS_CODE = 0
_GONIOMETER_RADIUS = 300
_FIXED_DIVSLIT = 0.15
_FIXED_SAMPLESLIT = 1
_SOLLER_SLITS = 2
_FIXED_DETSLIT = 1
_MONOCHROMATOR = 0
; Incident beam monochromator : None
_THIN_FILM = N
_BETA_FILTER = N
_FIXED_ANTISLIT = 0.15
_ANALYZER_CODE = 0
; Received beam analyzer : None
_DATEMEASURED = "18-Feb-2019 09:41:40"
_WL_UNIT = A
_WL1 = 1.5406
_WL2 = 1.54439
_WL3 = 1.39222
_WLRATIO = 0.5
_ANODE = Cu

; Data for range 1
_DRIVE = 2THETA
_STEPTIME = 1
_STEPSIZE = 0.004
_STEPMODE = C
_START = -0.2
_THETA = 0
_2THETA = -0.2
_KHI = 0
_PHI = 0
_X = 30
_Y = 5
_Z = -15
_DETECTOR = 1
; Detector type : Scintillation counter
_HV = 743.4
_GAIN = 80
_LLD = 0.98
_ULD = 2.01
_DETECTORSLIT = out
_AUX1 = 0
_AUX2 = 0
_AUX3 = 0
_TIMESTARTED = 1
_TEMP_RATE = -1
_TEMP_DELAY = -1
_KV = 40
_MA = 40
_RANGE_WL = 1.5406
_3DPLANE = 0
_V4_COUNTERS_MASK = 1
_V4_DRIVES_MASK = 0
_V4_ENCODERS_MASK = 0
_2THETACOUNTS = 1
; 2THETA  Cnt1_D1
  -0.2000      41195
  -0.1960      43712
  -0.1920      47077
  -0.1880      52652
  -0.1840      55984
  -0.1800      61390
  -0.1760      67357
  -0.1720      72064
  -0.1680      79036
  -0.1640      86483
  -0.1600      94904
  -0.1560     105071
  -0.1520     113809
  -0.1480     124388
  -0.1440     137326
  -0.1400     147979
  -0.1360     158844
  -0.1320     170417
  -0.1280     184857
  -0.1240     198092
  -0.1200     215653
  -0.1160     234261
  -0.1120     256361
  -0.1080     278037
  -0.1040     302255
  -0.1000     314835
  -0.0960     355485
  -0.0920     384604
  -0.0880     440745
  -0.0840     494091
  -0.0800     548718
  -0.0760     641666
  -0.0720     742651
  -0.0680     886965
  -0.0640    1057600
  -0.0600    1296610
  -0.0560    1631710
  -0.0520    2193940
  -0.0480    3073100
  -0.0440    4776960
  -0.0400    7801560
  -0.0360   12350500
  -0.0320   18459700
  -0.0280   28361700
  -0.0240   36151200
  -0.0200   47553500
  -0.0160   59255800
  -0.0120   69577904
  -0.0080   79179800
  -0.0040   85937200
   0.0000   90762096
   0.0040   91674304
   0.0080   88553696
   0.0120   84869000
   0.0160   75315104
   0.0200   66913400
   0.0240   55199000
   0.0280   46725300
   0.0320   36535300
   0.0360   29165800
   0.0400   20320100
   0.0440   14618900
   0.0480   10682100
   0.0520    7009400
   0.0560    4548910
   0.0600    2832570
   0.0640    1896380
   0.0680    1260250
   0.0720     751969
   0.0760     591582
   0.0800     481861
   0.0840     404405
   0.0880     341624
   0.0920     292005
   0.0960     253918
   0.1000     227245
   0.1040     199523
   0.1080     180538
   0.1120     156660
   0.1160     142567
   0.1200     127774
   0.1240     116709
   0.1280     100204
   0.1320      91984
   0.1360      82887
   0.1400      76687
   0.1440      72096
   0.1480      64014
   0.1520      60882
   0.1560      55497
   0.1600      51668
   0.1640      49044
   0.1680      48198
   0.1720      44009
   0.1760      41459
   0.1800      39513
   0.1840      34424
   0.1880      32552
   0.1920      27685
   0.1960      23940
   0.2000      20354