Folder: Master_Praktikum/v65/messwerte

File: mess1.txt
#; (content of file C:\Users\BrukerAdm\Desktop\Praktikum\65_hering_ptaszyk\mess1.raw)
#_FILEVERSION = 2
#_SAMPLE =
#_+SAMPLE =
#_SITE = Dortmund
#_USER = "Metin Tolan"
#_GONIOMETER_CODE = 21
#_STAGE_CODE = 8
#; Goniometer : D8 theta/theta, stage : XYZ Drive(s)
#_SAMPLE_CHANGER_CODE = 0
#_ATTACHMENTS_CODE = 0
#_GONIOMETER_RADIUS = 300
#_FIXED_DIVSLIT = 0.15
#_FIXED_SAMPLESLIT = 1
#_SOLLER_SLITS = 2
#_FIXED_DETSLIT = 1
#_MONOCHROMATOR = 0
#; Incident beam monochromator : None
#_THIN_FILM = N
#_BETA_FILTER = N
#_FIXED_ANTISLIT = 0.15
#_ANALYZER_CODE = 0
#; Received beam analyzer : None
#_DATEMEASURED = "18-Feb-2019 10:55:45"
#_WL_UNIT = A
#_WL1 = 1.5406
#_WL2 = 1.54439
#_WL3 = 1.39222
#_WLRATIO = 0.5
#_ANODE = Cu
#
#; Data for range 1
#_DRIVE = THETA
#_STEPTIME = 4.994
#_STEPSIZE = 0.005
#_STEPMODE = C
#_START = 0
#_THETA = 0
#_2THETA = 0
#_KHI = 0
#_PHI = 0
#_X = 30
#_Y = 4
#_Z = 18.76
#_DETECTOR = 1
#; Detector type : Scintillation counter
#_HV = 743.4
#_GAIN = 80
#_LLD = 0.98
#_ULD = 2.01
#_DETECTORSLIT = out
#_AUX1 = 0
#_AUX2 = 0
#_AUX3 = 0
#_TIMESTARTED = 2
#_TEMP_RATE = -1
#_TEMP_DELAY = -1
#_KV = 40
#_MA = 40
#_RANGE_WL = 1.5406
#_3DPLANE = 0
#_V4_COUNTERS_MASK = 1
#_V4_DRIVES_MASK = 0
#_V4_ENCODERS_MASK = 0
#_2THETACOUNTS = 1
#; THETA  Cnt1_D1
   0.0000  268566016
   0.0100  297107008
   0.0200  127814000
   0.0300   59663900
   0.0400   62112400
   0.0500   74871000
   0.0600   86645296
   0.0700  104097000
   0.0800  116063000
   0.0900  129770000
   0.1000  142384000
   0.1100  156499008
   0.1200  167156992
   0.1300  179556000
   0.1400  192362000
   0.1500  194163008
   0.1600  193899008
   0.1700  209394000
   0.1800  207906000
   0.1900  224168992
   0.2000  222908992
   0.2100  208950000
   0.2200  162764992
   0.2300   82576496
   0.2400   29225800
   0.2500   19828000
   0.2600   23068600
   0.2700   17607500
   0.2800    8269650
   0.2900    4855650
   0.3000    7379920
   0.3100    8256750
   0.3200    5390510
   0.3300    2409770
   0.3400    2275010
   0.3500    3685300
   0.3600    3843480
   0.3700    2384260
   0.3800    1107800
   0.3900    1269120
   0.4000    2030530
   0.4100    2050090
   0.4200    1229990
   0.4300     609286
   0.4400     715861
   0.4500    1163010
   0.4600    1218110
   0.4700     782602
   0.4800     379585
   0.4900     427042
   0.5000     701441
   0.5100     786210
   0.5200     543443
   0.5300     270981
   0.5400     246660
   0.5500     416114
   0.5600     507263
   0.5700     385753
   0.5800     197912
   0.5900     153935
   0.6000     254742
   0.6100     333154
   0.6200     279561
   0.6300     154919
   0.6400     101632
   0.6500     155236
   0.6600     220964
   0.6700     207497
   0.6800     125202
   0.6900      73090
   0.7000      96385
   0.7100     148201
   0.7200     155702
   0.7300     107345
   0.7400      57571
   0.7500      61210
   0.7600      95359
   0.7700     112317
   0.7800      89213
   0.7900      49129
   0.8000      40657
   0.8100      62775
   0.8200      83330
   0.8300      72999
   0.8400      44321
   0.8500      29671
   0.8600      40598
   0.8700      58549
   0.8800      58387
   0.8900      39653
   0.9000      23804
   0.9100      26396
   0.9200      39999
   0.9300      45685
   0.9400      34882
   0.9500      20545
   0.9600      17846
   0.9700      26973
   0.9800      34431
   0.9900      30372
   1.0000      19279
   1.0100      13341
   1.0200      17677
   1.0300      24725
   1.0400      24838
   1.0500      17829
   1.0600      11237
   1.0700      11967
   1.0800      17716
   1.0900      20269
   1.1000      15852
   1.1100       9951
   1.1200       8607
   1.1300      12157
   1.1400      15578
   1.1500      13783
   1.1600       9033
   1.1700       6484
   1.1800       8395
   1.1900      11566
   1.2000      11661
   1.2100       8328
   1.2200       5731
   1.2300       6037
   1.2400       8583
   1.2500       9700
   1.2600       7620
   1.2700       5001
   1.2800       4385
   1.2900       5958
   1.3000       7394
   1.3100       6722
   1.3200       4565
   1.3300       3444
   1.3400       4358
   1.3500       5643
   1.3600       5639
   1.3700       4315
   1.3800       2813
   1.3900       2992
   1.4000       4302
   1.4100       4728
   1.4200       3879
   1.4300       2643
   1.4400       2402
   1.4500       3108
   1.4600       3746
   1.4700       3345
   1.4800       2466
   1.4900       1891
   1.5000       2195
   1.5100       2938
   1.5200       2902
   1.5300       2286
   1.5400       1643
   1.5500       1601
   1.5600       2195
   1.5700       2495
   1.5800       2046
   1.5900       1475
   1.6000       1243
   1.6100       1591
   1.6200       1888
   1.6300       1906
   1.6400       1390
   1.6500       1047
   1.6600       1230
   1.6700       1531
   1.6800       1583
   1.6900       1292
   1.7000        937
   1.7100        937
   1.7200       1155
   1.7300       1365
   1.7400       1161
   1.7500        833
   1.7600        722
   1.7700        873
   1.7800       1063
   1.7900       1024
   1.8000        812
   1.8100        611
   1.8200        653
   1.8300        819
   1.8400        817
   1.8500        709
   1.8600        577
   1.8700        503
   1.8800        620
   1.8900        772
   1.9000        619
   1.9100        520
   1.9200        446
   1.9300        550
   1.9400        576
   1.9500        579
   1.9600        496
   1.9700        376
   1.9800        417
   1.9900        473
   2.0000        515
   2.0100        427
   2.0200        313
   2.0300        338
   2.0400        372
   2.0500        428
   2.0600        354
   2.0700        292
   2.0800        278
   2.0900        282
   2.1000        334
   2.1100        358
   2.1200        324
   2.1300        201
   2.1400        277
   2.1500        269
   2.1600        299
   2.1700        285
   2.1800        240
   2.1900        230
   2.2000        231
   2.2100        264
   2.2200        257
   2.2300        217
   2.2400        174
   2.2500        196
   2.2600        231
   2.2700        220
   2.2800        176
   2.2900        162
   2.3000        166
   2.3100        204
   2.3200        197
   2.3300        184
   2.3400        161
   2.3500        161
   2.3600        178
   2.3700        180
   2.3800        181
   2.3900        146
   2.4000        122
   2.4100        148
   2.4200        144
   2.4300        143
   2.4400        134
   2.4500        106
   2.4600        122
   2.4700        138
   2.4800        126
   2.4900        129
   2.5000         98

File: mess1_untergrund.txt
#; (content of file C:\Users\BrukerAdm\Desktop\Praktikum\65_hering_ptaszyk\mess1_untregrund.raw)
#_FILEVERSION = 2
#_SAMPLE =
#_+SAMPLE =
#_SITE = Dortmund
#_USER = "Metin Tolan"
#_GONIOMETER_CODE = 21
#_STAGE_CODE = 8
#; Goniometer : D8 theta/theta, stage : XYZ Drive(s)
#_SAMPLE_CHANGER_CODE = 0
#_ATTACHMENTS_CODE = 0
#_GONIOMETER_RADIUS = 300
#_FIXED_DIVSLIT = 0.15
#_FIXED_SAMPLESLIT = 1
#_SOLLER_SLITS = 2
#_FIXED_DETSLIT = 1
#_MONOCHROMATOR = 0
#; Incident beam monochromator : None
#_THIN_FILM = N
#_BETA_FILTER = N
#_FIXED_ANTISLIT = 0.15
#_ANALYZER_CODE = 0
#; Received beam analyzer : None
#_DATEMEASURED = "18-Feb-2019 12:29:14"
#_WL_UNIT = A
#_WL1 = 1.5406
#_WL2 = 1.54439
#_WL3 = 1.39222
#_WLRATIO = 0.5
#_ANODE = Cu
#
#; Data for range 1
#_DRIVE = THETA
#_STEPTIME = 4.994
#_STEPSIZE = 0.005
#_STEPMODE = C
#_START = 0
#_THETA = 0
#_2THETA = 0.15
#_KHI = 0
#_PHI = 0
#_X = 30
#_Y = 4
#_Z = 18.76
#_DETECTOR = 1
#; Detector type : Scintillation counter
#_HV = 743.4
#_GAIN = 80
#_LLD = 0.98
#_ULD = 2.01
#_DETECTORSLIT = out
#_AUX1 = 0
#_AUX2 = 0
#_AUX3 = 0
#_TIMESTARTED = 2
#_TEMP_RATE = -1
#_TEMP_DELAY = -1
#_KV = 40
#_MA = 40
#_RANGE_WL = 1.5406
#_3DPLANE = 0
#_V4_COUNTERS_MASK = 1
#_V4_DRIVES_MASK = 0
#_V4_ENCODERS_MASK = 0
#_2THETACOUNTS = 1
#; THETA  Cnt1_D1
   0.0000     454093
   0.0100     485640
   0.0200     612365
   0.0300     706603
   0.0400     658574
   0.0500     673618
   0.0600     590890
   0.0700     533806
   0.0800     473273
   0.0900     385700
   0.1000     339755
   0.1100     298994
   0.1200     260042
   0.1300     232812
   0.1400     219916
   0.1500     205508
   0.1600     182689
   0.1700     157490
   0.1800     125964
   0.1900     117522
   0.2000     102807
   0.2100      79417
   0.2200      62935
   0.2300      37295
   0.2400      20733
   0.2500      16536
   0.2600      15505
   0.2700      12432
   0.2800       8887
   0.2900       7559
   0.3000       7569
   0.3100       6900
   0.3200       5694
   0.3300       4604
   0.3400       4265
   0.3500       4199
   0.3600       3918
   0.3700       3237
   0.3800       2914
   0.3900       2746
   0.4000       2752
   0.4100       2530
   0.4200       2138
   0.4300       1918
   0.4400       1925
   0.4500       1836
   0.4600       1732
   0.4700       1501
   0.4800       1406
   0.4900       1335
   0.5000       1262
   0.5100       1238
   0.5200       1037
   0.5300       1017
   0.5400        939
   0.5500        917
   0.5600        887
   0.5700        830
   0.5800        753
   0.5900        677
   0.6000        688
   0.6100        641
   0.6200        664
   0.6300        599
   0.6400        553
   0.6500        555
   0.6600        525
   0.6700        477
   0.6800        467
   0.6900        478
   0.7000        439
   0.7100        432
   0.7200        412
   0.7300        399
   0.7400        349
   0.7500        339
   0.7600        388
   0.7700        304
   0.7800        317
   0.7900        306
   0.8000        303
   0.8100        296
   0.8200        290
   0.8300        279
   0.8400        254
   0.8500        232
   0.8600        250
   0.8700        246
   0.8800        226
   0.8900        239
   0.9000        214
   0.9100        208
   0.9200        201
   0.9300        200
   0.9400        184
   0.9500        176
   0.9600        187
   0.9700        164
   0.9800        193
   0.9900        178
   1.0000        177
   1.0100        145
   1.0200        157
   1.0300        155
   1.0400        162
   1.0500        155
   1.0600        139
   1.0700        158
   1.0800        122
   1.0900        135
   1.1000        124
   1.1100        115
   1.1200        119
   1.1300        122
   1.1400        120
   1.1500        119
   1.1600        118
   1.1700        127
   1.1800        113
   1.1900        103
   1.2000        109
   1.2100         98
   1.2200         98
   1.2300        107
   1.2400        101
   1.2500         97
   1.2600         98
   1.2700         90
   1.2800         76
   1.2900         96
   1.3000         96
   1.3100         69
   1.3200         68
   1.3300         82
   1.3400         78
   1.3500         90
   1.3600         87
   1.3700         91
   1.3800         82
   1.3900         81
   1.4000         73
   1.4100         91
   1.4200         67
   1.4300         60
   1.4400         76
   1.4500         77
   1.4600         66
   1.4700         82
   1.4800         75
   1.4900         56
   1.5000         67
   1.5100         69
   1.5200         72
   1.5300         64
   1.5400         55
   1.5500         67
   1.5600         59
   1.5700         63
   1.5800         59
   1.5900         71
   1.6000         62
   1.6100         61
   1.6200         55
   1.6300         65
   1.6400         70
   1.6500         50
   1.6600         62
   1.6700         52
   1.6800         62
   1.6900         60
   1.7000         48
   1.7100         52
   1.7200         48
   1.7300         47
   1.7400         46
   1.7500         55
   1.7600         43
   1.7700         46
   1.7800         40
   1.7900         47
   1.8000         51
   1.8100         46
   1.8200         52
   1.8300         51
   1.8400         47
   1.8500         56
   1.8600         51
   1.8700         50
   1.8800         55
   1.8900         43
   1.9000         59
   1.9100         51
   1.9200         40
   1.9300         55
   1.9400         56
   1.9500         46
   1.9600         37
   1.9700         43
   1.9800         46
   1.9900         42
   2.0000         53
   2.0100         39
   2.0200         45
   2.0300         42
   2.0400         41
   2.0500         42
   2.0600         39
   2.0700         40
   2.0800         46
   2.0900         42
   2.1000         52
   2.1100         44
   2.1200         31
   2.1300         51
   2.1400         33
   2.1500         51
   2.1600         32
   2.1700         44
   2.1800         36
   2.1900         40
   2.2000         36
   2.2100         30
   2.2200         46
   2.2300         32
   2.2400         38
   2.2500         32
   2.2600         33
   2.2700         51
   2.2800         53
   2.2900         30
   2.3000         32
   2.3100         46
   2.3200         45
   2.3300         45
   2.3400         40
   2.3500         40
   2.3600         44
   2.3700         33
   2.3800         40
   2.3900         40
   2.4000         41
   2.4100         30
   2.4200         41
   2.4300         49
   2.4400         38
   2.4500         35
   2.4600         45
   2.4700         46
   2.4800         30
   2.4900         39
   2.5000         39

File: rock_scan_0.txt
#; (content of file C:\Users\BrukerAdm\Desktop\Praktikum\65_hering_ptaszyk\rock_scan_0.raw)
#_FILEVERSION = 2
#_SAMPLE =
#_+SAMPLE =
#_SITE = Dortmund
#_USER = "Metin Tolan"
#_GONIOMETER_CODE = 21
#_STAGE_CODE = 8
#; Goniometer : D8 theta/theta, stage : XYZ Drive(s)
#_SAMPLE_CHANGER_CODE = 0
#_ATTACHMENTS_CODE = 0
#_GONIOMETER_RADIUS = 300
#_FIXED_DIVSLIT = 0.15
#_FIXED_SAMPLESLIT = 1
#_SOLLER_SLITS = 2
#_FIXED_DETSLIT = 1
#_MONOCHROMATOR = 0
#; Incident beam monochromator : None
#_THIN_FILM = N
#_BETA_FILTER = N
#_FIXED_ANTISLIT = 0.15
#_ANALYZER_CODE = 0
#; Received beam analyzer : None
#_DATEMEASURED = "18-Feb-2019 10:06:41"
#_WL_UNIT = A
#_WL1 = 1.5406
#_WL2 = 1.54439
#_WL3 = 1.39222
#_WLRATIO = 0.5
#_ANODE = Cu
#
#; Data for range 1
#_DRIVE = THETA
#_STEPTIME = 1
#_STEPSIZE = 0.02
#_STEPMODE = C
#_START = -1
#_THETA = -1
#_2THETA = 0
#_KHI = 0
#_PHI = 0
#_X = 30
#_Y = 4
#_Z = 18.734
#_DETECTOR = 1
#; Detector type : Scintillation counter
#_HV = 743.4
#_GAIN = 80
#_LLD = 0.98
#_ULD = 2.01
#_DETECTORSLIT = out
#_AUX1 = 0
#_AUX2 = 0
#_AUX3 = 0
#_TIMESTARTED = 3
#_TEMP_RATE = -1
#_TEMP_DELAY = -1
#_KV = 40
#_MA = 40
#_RANGE_WL = 1.5406
#_3DPLANE = 0
#_V4_COUNTERS_MASK = 1
#_V4_DRIVES_MASK = 0
#_V4_ENCODERS_MASK = 0
#_2THETACOUNTS = 1
#; THETA  Cnt1_D1
  -1.0000     616042
  -0.9800     624428
  -0.9600     660535
  -0.9400     663098
  -0.9200     659138
  -0.9000     682549
  -0.8800     696759
  -0.8600     692333
  -0.8400     690936
  -0.8200     706660
  -0.8000     723898
  -0.7800     707592
  -0.7600     719123
  -0.7400     725762
  -0.7200     714347
  -0.7000     737177
  -0.6800     727975
  -0.6600     738924
  -0.6400     748242
  -0.6200     751154
  -0.6000     733682
  -0.5800     751620
  -0.5600     754764
  -0.5400     765830
  -0.5200     762452
  -0.5000     754182
  -0.4800     749174
  -0.4600     785747
  -0.4400     848644
  -0.4200     954754
  -0.4000    1145310
  -0.3800    1446050
  -0.3600    1874910
  -0.3400    2476160
  -0.3200    3242340
  -0.3000    4680940
  -0.2800    6073210
  -0.2600    7057410
  -0.2400    8413680
  -0.2200    9817960
  -0.2000   11690300
  -0.1800   14246800
  -0.1600   16239200
  -0.1400   19047800
  -0.1200   22228400
  -0.1000   23380700
  -0.0800   25925200
  -0.0600   29177800
  -0.0400   32490500
  -0.0200   34470900
   0.0000   37363500
   0.0200   40712100
   0.0400   44528900
   0.0600   46389300
   0.0800   49906000
   0.1000   52882600
   0.1200   55331100
   0.1400   61152200
   0.1600   61200200
   0.1800   64945000
   0.2000   70322096
   0.2200   71066200
   0.2400   74234800
   0.2600   70010000
   0.2800   66229200
   0.3000   63120600
   0.3200   59976000
   0.3400   56579300
   0.3600   50290100
   0.3800   47541500
   0.4000   45453100
   0.4200   40784200
   0.4400   38179600
   0.4600   34062800
   0.4800   30522100
   0.5000   28289700
   0.5200   23668700
   0.5400   21784400
   0.5600   18519700
   0.5800   14907000
   0.6000   13442700
   0.6200   11210200
   0.6400    9181840
   0.6600    7117420
   0.6800    4956990
   0.7000    3948790
   0.7200    2688540
   0.7400    1596320
   0.7600    1236250
   0.7800     737992
   0.8000     578070
   0.8200     524491
   0.8400     508884
   0.8600     490015
   0.8800     495489
   0.9000     505622
   0.9200     484773
   0.9400     491412
   0.9600     510980
   0.9800     508418
   1.0000     499682